File: examples/Birch_TGA_Gronli/birch_tga_10_exp.csv
#FILE:                        13WaT18 10 K min N2 15.2.2007.dsu
#FORMAT:                      NETZSCH4
#IDENTITY:                    13 WaT18 10 K min N2
#DECIMAL:                     POINT
#SEPARATOR:                   SEMICOLON
#MTYPE:                       TG
#INSTRUMENT:                  NETZSCH STA 449C
#PROJECT:                     vtt
#DATE/TIME:                   15.2.2007 8:12:40
#CORR. FILE:                  correction 10K min N2 800 C.bsu
#LABORATORY:                  EO
#OPERATOR:                    TL
#REMARK:
#SAMPLE:                      13 WaT18
#SAMPLE MASS /mg:             12.798
#MATERIAL:                    Empty crucibles
#REFERENCE:                   al2o3
#REFERENCE MASS /mg:          40.312
#TYPE OF CRUCIBLE:            DSC/TG pan Al2O3
#SAMPLE CRUCIBLE MASS /mg:    0.000
#REFERENCE CRUCIBLE MASS /mg: 0.000
#PROTECTIVE GAS:              N2
#PURGE GAS 1:                 air
#FLOW RATE 1 /(ml/min):       40
#PURGE GAS 2:
#FLOW RATE 2:
#DSC RANGE /æm:               5000
#TG RANGE /æm:                5000
#CORR. CODE:                  020
#EXO:                         +1
#RANGE:                       20.0/10.00(K/min)/800.0
#SEGMENT:                     S1/2
Temp (C),Mass (%)
 23.01411,100
 24.01411, 99.94928
 25.01411, 99.94623
 26.01411, 99.93747
 27.01411, 99.93479
 28.01411, 99.92891
 29.01411, 99.93246
 30.01411, 99.93081
 31.01411, 99.91664
 32.01411, 99.90970
 33.01411, 99.90379
 34.01411, 99.89935
 35.01411, 99.89244
 36.01411, 99.88626
 37.01411, 99.87417
 38.01411, 99.86266
 39.01411, 99.84846
 40.01411, 99.83383
 41.01411, 99.82218
 42.01411, 99.80836
 43.01411, 99.79817
 44.01411, 99.78191
 45.01411, 99.76838
 46.01411, 99.74943
 47.01411, 99.73271
 48.01411, 99.71680
 49.01411, 99.70130
 50.01411, 99.68596
 51.01411, 99.66409
 52.01411, 99.63933
 53.01411, 99.61186
 54.01411, 99.59170
 55.01411, 99.57107
 56.01411, 99.54435
 57.01411, 99.50957
 58.01411, 99.47697
 59.01411, 99.45007
 60.01411, 99.42227
 61.01411, 99.38516
 62.01411, 99.35205
 63.01411, 99.31595
 64.01411, 99.28393
 65.01411, 99.25233
 66.01411, 99.21585
 67.01411, 99.17157
 68.01411, 99.12821
 69.01411, 99.08870
 70.01411, 99.04637
 71.01411, 99.00471
 72.01411, 98.96221
 73.01411, 98.91330
 74.01411, 98.86552
 75.01411, 98.81828
 76.01411, 98.77493
 77.01411, 98.72898
 78.01411, 98.67798
 79.01411, 98.63029
 80.01411, 98.58100
 81.01411, 98.53471
 82.01411, 98.48610
 83.01411, 98.43899
 84.01411, 98.39230
 85.01411, 98.34762
 86.01411, 98.30083
 87.01411, 98.25416
 88.01411, 98.20411
 89.01411, 98.16014
 90.01411, 98.11769
 91.01411, 98.07858
 92.01411, 98.03808
 93.01411, 97.99708
 94.01411, 97.95756
 95.01411, 97.92016
 96.01411, 97.88710
 97.01411, 97.85168
 98.01411, 97.82136
 99.01411, 97.78961
100.014, 97.76098
101.014, 97.73288
102.014, 97.70789
103.014, 97.68463
104.014, 97.66062
105.014, 97.64058
106.014, 97.61719
107.014, 97.60289
108.014, 97.58542
109.014, 97.57188
110.014, 97.55269
111.014, 97.53763
112.014, 97.52525
113.014, 97.51330
114.014, 97.50103
115.014, 97.49180
116.014, 97.48542
117.014, 97.47915
118.014, 97.47113
119.014, 97.46331
120.014, 97.45678
121.014, 97.44798
122.014, 97.43949
123.014, 97.43176
124.014, 97.42683
125.014, 97.42226
126.014, 97.41723
127.014, 97.41354
128.014, 97.40959
129.014, 97.40591
130.014, 97.40173
131.014, 97.39938
132.014, 97.39475
133.014, 97.39101
134.014, 97.38750
135.014, 97.38485
136.014, 97.38164
137.014, 97.38084
138.014, 97.37954
139.014, 97.37671
140.014, 97.36841
141.014, 97.36747
142.014, 97.36677
143.014, 97.36541
144.014, 97.36330
145.014, 97.35944
146.014, 97.35899
147.014, 97.35662
148.014, 97.35574
149.014, 97.35312
150.014, 97.35047
151.014, 97.34855
152.014, 97.34641
153.014, 97.34412
154.014, 97.34178
155.014, 97.34175
156.014, 97.34107
157.014, 97.33945
158.014, 97.33877
159.014, 97.33944
160.014, 97.33712
161.014, 97.33550
162.014, 97.33409
163.014, 97.33159
164.014, 97.33133
165.014, 97.32789
166.014, 97.32294
167.014, 97.32062
168.014, 97.31911
169.014, 97.31615
170.014, 97.31295
171.014, 97.30899
172.014, 97.30744
173.014, 97.30667
174.014, 97.30556
175.014, 97.30414
176.014, 97.30189
177.014, 97.30097
178.014, 97.29723
179.014, 97.29192
180.014, 97.28647
181.014, 97.28413
182.014, 97.28174
183.014, 97.27776
184.014, 97.26920
185.014, 97.26572
186.014, 97.26154
187.014, 97.25459
188.014, 97.24946
189.014, 97.24560
190.014, 97.24024
191.014, 97.23407
192.014, 97.22827
193.014, 97.21977
194.014, 97.21324
195.014, 97.20815
196.014, 97.20404
197.014, 97.19539
198.014, 97.18538
199.014, 97.17894
200.014, 97.17115
201.014, 97.16557
202.014, 97.15401
203.014, 97.14326
204.014, 97.13474
205.014, 97.12399
206.014, 97.11318
207.014, 97.10322
208.014, 97.09119
209.014, 97.08008
210.014, 97.06855
211.014, 97.05762
212.014, 97.04191
213.014, 97.03212
214.014, 97.02177
215.014, 97.00519
216.014, 96.99333
217.014, 96.97980
218.014, 96.96282
219.014, 96.94372
220.014, 96.92931
221.014, 96.91553
222.014, 96.90008
223.014, 96.87939
224.014, 96.86307
225.014, 96.84349
226.014, 96.81802
227.014, 96.79542
228.014, 96.77130
229.014, 96.75335
230.014, 96.72683
231.014, 96.69966
232.014, 96.67624
233.014, 96.64420
234.014, 96.61118
235.014, 96.58216
236.014, 96.54919
237.014, 96.51125
238.014, 96.47369
239.014, 96.43841
240.014, 96.39320
241.014, 96.34231
242.014, 96.29486
243.014, 96.24875
244.014, 96.19676
245.014, 96.14007
246.014, 96.08023
247.014, 96.02173
248.014, 95.95734
249.014, 95.89238
250.014, 95.82526
251.014, 95.75585
252.014, 95.68059
253.014, 95.60239
254.014, 95.51687
255.014, 95.43187
256.014, 95.33769
257.014, 95.22801
258.014, 95.13321
259.014, 95.02806
260.014, 94.90536
261.014, 94.79057
262.014, 94.67341
263.014, 94.52792
264.014, 94.39764
265.014, 94.23989
266.014, 94.08241
267.014, 93.91499
268.014, 93.74224
269.014, 93.55362
270.014, 93.35215
271.014, 93.14614
272.014, 92.92371
273.014, 92.70184
274.014, 92.45736
275.014, 92.20069
276.014, 91.92898
277.014, 91.64495
278.014, 91.35416
279.014, 91.04558
280.014, 90.58374
281.014, 90.31012
282.014, 89.89282
283.014, 89.60840
284.014, 89.33415
285.014, 88.81821
286.014, 88.52434
287.014, 87.96880
288.014, 87.64735
289.014, 87.14347
290.014, 86.79023
291.014, 86.22879
292.014, 85.83525
293.014, 85.47705
294.014, 84.88185
295.014, 84.38457
296.014, 83.93925
297.014, 83.56944
298.014, 83.13649
299.014, 82.64537
300.014, 82.02382
301.014, 81.59246
302.014, 81.22023
303.014, 80.57786
304.014, 80.13552
305.014, 79.65164
306.014, 79.29168
307.014, 78.65568
308.014, 78.26332
309.014, 77.87099
310.014, 77.30017
311.014, 76.93110
312.014, 76.26643
313.014, 75.76228
314.014, 75.40106
315.014, 75.03876
316.014, 74.45243
317.014, 73.87087
318.014, 73.48888
319.014, 72.85240
320.014, 72.39775
321.014, 71.87883
322.014, 71.43025
323.014, 70.96834
324.014, 70.58031
325.014, 69.93864
326.014, 69.53209
327.014, 69.11770
328.014, 68.46584
329.014, 67.94997
330.014, 67.44323
331.014, 66.97670
332.014, 66.48177
333.014, 65.96495
334.014, 65.47161
335.014, 65.04681
336.014, 64.67198
337.014, 64.02045
338.014, 63.61283
339.014, 63.02631
340.014, 62.64018
341.014, 61.94299
342.014, 61.43712
343.014, 60.92112
344.014, 60.51407
345.014, 59.82744
346.014, 59.27204
347.014, 58.70262
348.014, 58.10772
349.014, 57.53809
350.014, 56.89060
351.014, 56.28519
352.014, 55.60906
353.014, 54.94829
354.014, 54.24849
355.014, 53.49129
356.014, 52.69426
357.014, 51.84275
358.014, 50.97859
359.014, 50.14379
360.014, 49.16600
361.014, 48.18870
362.014, 47.20218
363.014, 46.11947
364.014, 45.01457
365.014, 43.91334
366.014, 42.73603
367.014, 41.53971
368.014, 40.37104
369.014, 39.13151
370.014, 37.92182
371.014, 36.70433
372.014, 35.51441
373.014, 34.35081
374.014, 33.22823
375.014, 32.17207
376.014, 31.15957
377.014, 30.19677
378.014, 29.38708
379.014, 28.57821
380.014, 27.85642
381.014, 27.32071
382.014, 26.86832
383.014, 26.33732
384.014, 26.02390
385.014, 25.60698
386.014, 25.40229
387.014, 25.22706
388.014, 25.03344
389.014, 24.86496
390.014, 24.74006
391.014, 24.62927
392.014, 24.51868
393.014, 24.41908
394.014, 24.34357
395.014, 24.26247
396.014, 24.18481
397.014, 24.10534
398.014, 24.03010
399.014, 23.96521
400.014, 23.89327
401.014, 23.82094
402.014, 23.74306
403.014, 23.68064
404.014, 23.61512
405.014, 23.54503
406.014, 23.48145
407.014, 23.41364
408.014, 23.34530
409.014, 23.27596
410.014, 23.21765
411.014, 23.14670
412.014, 23.08266
413.014, 23.01924
414.014, 22.95019
415.014, 22.88599
416.014, 22.82068
417.014, 22.75431
418.014, 22.69202
419.014, 22.62576
420.014, 22.56364
421.014, 22.49873
422.014, 22.43484
423.014, 22.37856
424.014, 22.31158
425.014, 22.24598
426.014, 22.18383
427.014, 22.12435
428.014, 22.06454
429.014, 22.00200
430.014, 21.94446
431.014, 21.88439
432.014, 21.82367
433.014, 21.77273
434.014, 21.71690
435.014, 21.65898
436.014, 21.60205
437.014, 21.54425
438.014, 21.49115
439.014, 21.43590
440.014, 21.38261
441.014, 21.33202
442.014, 21.28120
443.014, 21.23156
444.014, 21.18155
445.014, 21.13268
446.014, 21.08284
447.014, 21.03441
448.014, 20.99137
449.014, 20.94631
450.014, 20.90000
451.014, 20.85707
452.014, 20.81182
453.014, 20.77262
454.014, 20.73593
455.014, 20.69351
456.014, 20.64781
457.014, 20.60885
458.014, 20.56960
459.014, 20.53185
460.014, 20.49681
461.014, 20.46000
462.014, 20.41854
463.014, 20.38455
464.014, 20.34843
465.014, 20.31451
466.014, 20.27604
467.014, 20.24376
468.014, 20.21167
469.014, 20.17948
470.014, 20.14820
471.014, 20.11382
472.014, 20.08703
473.014, 20.05563
474.014, 20.02582
475.014, 19.99530
476.014, 19.96398
477.014, 19.93051
478.014, 19.90071
479.014, 19.87054
480.014, 19.84522
481.014, 19.82088
482.014, 19.79082
483.014, 19.76326
484.014, 19.73456
485.014, 19.70434
486.014, 19.67749
487.014, 19.65229
488.014, 19.62516
489.014, 19.60011
490.014, 19.57266
491.014, 19.54670
492.014, 19.52390
493.014, 19.49622
494.014, 19.46882
495.014, 19.44639
496.014, 19.42115
497.014, 19.39536
498.014, 19.36530
499.014, 19.34547
500.014, 19.32037
501.014, 19.29741
502.014, 19.27361
503.014, 19.25157
504.014, 19.22826
505.014, 19.20627
506.014, 19.17889
507.014, 19.15858
508.014, 19.12874
509.014, 19.11055
510.014, 19.08747
511.014, 19.06735
512.014, 19.04735
513.014, 19.01997
514.014, 18.99435
515.014, 18.97874
516.014, 18.95573
517.014, 18.93388
518.014, 18.90927
519.014, 18.88612
520.014, 18.86425
521.014, 18.83990
522.014, 18.82190
523.014, 18.79355
524.014, 18.77581
525.014, 18.76244
526.014, 18.74365
527.014, 18.72067
528.014, 18.69637
529.014, 18.67998
530.014, 18.65776
531.014, 18.63098
532.014, 18.61893
533.014, 18.60379
534.014, 18.57538
535.014, 18.55751
536.014, 18.54108
537.014, 18.51410
538.014, 18.50730
539.014, 18.48547
540.014, 18.46435
541.014, 18.44146
542.014, 18.42172
543.014, 18.40090
544.014, 18.38261
545.014, 18.37117
546.014, 18.35085
547.014, 18.32732
548.014, 18.31010
549.014, 18.29213
550.014, 18.27733
551.014, 18.26247
552.014, 18.24306
553.014, 18.21883
554.014, 18.20766
555.014, 18.18739
556.014, 18.16698
557.014, 18.15191
558.014, 18.14106
559.014, 18.12051
560.014, 18.10717
561.014, 18.08391
562.014, 18.06255
563.014, 18.04606
564.014, 18.03967
565.014, 18.01749
566.014, 17.99687
567.014, 17.98006
568.014, 17.96193
569.014, 17.94500
570.014, 17.93174
571.014, 17.91357
572.014, 17.89614
573.014, 17.88339
574.014, 17.87122
575.014, 17.85949
576.014, 17.83674
577.014, 17.81885
578.014, 17.80787
579.014, 17.79102
580.014, 17.77166
581.014, 17.75854
582.014, 17.74633
583.014, 17.73393
584.014, 17.71682
585.014, 17.70096
586.014, 17.68751
587.014, 17.67277
588.014, 17.65636
589.014, 17.63888
590.014, 17.62355
591.014, 17.60446
592.014, 17.59416
593.014, 17.58995
594.014, 17.55953
595.014, 17.55656
596.014, 17.53994
597.014, 17.52930
598.014, 17.52046
599.014, 17.50013
600.014, 17.47918
601.014, 17.47304
602.014, 17.45961
603.014, 17.45193
604.014, 17.43454
605.014, 17.41989
606.014, 17.40656
607.014, 17.39255
608.014, 17.38240
609.014, 17.37383
610.014, 17.35428
611.014, 17.34179
612.014, 17.32697
613.014, 17.32311
614.014, 17.30510
615.014, 17.30273
616.014, 17.28795
617.014, 17.27545
618.014, 17.26133
619.014, 17.25130
620.014, 17.23558
621.014, 17.22936
622.014, 17.21447
623.014, 17.21367
624.014, 17.20525
625.014, 17.18423
626.014, 17.17143
627.014, 17.17067
628.014, 17.16540
629.014, 17.14896
630.014, 17.13584
631.014, 17.12156
632.014, 17.11988
633.014, 17.11921
634.014, 17.10229
635.014, 17.08434
636.014, 17.06476
637.014, 17.05977
638.014, 17.06134
639.014, 17.04857
640.014, 17.04173
641.014, 17.03104
642.014, 17.03219
643.014, 17.02796
644.014, 17.00768
645.014, 16.99435
646.014, 16.99249
647.014, 16.98658
648.014, 16.97541
649.014, 16.96379
650.014, 16.95840
651.014, 16.94251
652.014, 16.93956
653.014, 16.92541
654.014, 16.92615
655.014, 16.91367
656.014, 16.91207
657.014, 16.90343
658.014, 16.90033
659.014, 16.88941
660.014, 16.88154
661.014, 16.86981
662.014, 16.85732
663.014, 16.85810
664.014, 16.85186
665.014, 16.84869
666.014, 16.84089
667.014, 16.82760
668.014, 16.82524
669.014, 16.81900
670.014, 16.80808
671.014, 16.80559
672.014, 16.79786
673.014, 16.78756
674.014, 16.77818
675.014, 16.76507
676.014, 16.76435
677.014, 16.76668
678.014, 16.76347
679.014, 16.75618
680.014, 16.74168
681.014, 16.73991
682.014, 16.73449
683.014, 16.72708
684.014, 16.71784
685.014, 16.71558
686.014, 16.71639
687.014, 16.70642
688.014, 16.70081
689.014, 16.70110
690.014, 16.69389
691.014, 16.67998
692.014, 16.67273
693.014, 16.66485
694.014, 16.65546
695.014, 16.65507
696.014, 16.64823
697.014, 16.63988
698.014, 16.63434
699.014, 16.63004
700.014, 16.62580
701.014, 16.62564
702.014, 16.62027
703.014, 16.61006
704.014, 16.59714
705.014, 16.59319
706.014, 16.58874
707.014, 16.58412
708.014, 16.57892
709.014, 16.57978
710.014, 16.57580
711.014, 16.57397
712.014, 16.56760
713.014, 16.56239
714.014, 16.55607
715.014, 16.55022
716.014, 16.54513
717.014, 16.53624
718.014, 16.52761
719.014, 16.51275
720.014, 16.51665
721.014, 16.51341
722.014, 16.50461
723.014, 16.49556
724.014, 16.49472
725.014, 16.48578
726.014, 16.47951
727.014, 16.46837
728.014, 16.46681
729.014, 16.46525
730.014, 16.45463
731.014, 16.45196
732.014, 16.44428
733.014, 16.44257
734.014, 16.43881
735.014, 16.44046
736.014, 16.43774
737.014, 16.43169
738.014, 16.41999
739.014, 16.41555
740.014, 16.40227
741.014, 16.38478
742.014, 16.38597
743.014, 16.38422
744.014, 16.37157
745.014, 16.36837
746.014, 16.36442
747.014, 16.35810
748.014, 16.35334
749.014, 16.34943
750.014, 16.34078
751.014, 16.33766
752.014, 16.33454
753.014, 16.32732
754.014, 16.32115
755.014, 16.31899
756.014, 16.31305
757.014, 16.30883
758.014, 16.30082
759.014, 16.29655
760.014, 16.29222
761.014, 16.28847
762.014, 16.28622
763.014, 16.27870
764.014, 16.27069
765.014, 16.26767
766.014, 16.26433
767.014, 16.25631
768.014, 16.25360
769.014, 16.25002
770.014, 16.24474
771.014, 16.24114
772.014, 16.23399
773.014, 16.22841
774.014, 16.22523
775.014, 16.21970
776.014, 16.20949
777.014, 16.20250
778.014, 16.19612
779.014, 16.19229
780.014, 16.18936
781.014, 16.18604
782.014, 16.17779
783.014, 16.17124
784.014, 16.17167
785.014, 16.17363
786.014, 16.16767
787.014, 16.15926
788.014, 16.15354
789.014, 16.14707
790.014, 16.14704
791.014, 16.14475
792.014, 16.13757
793.014, 16.13185
794.014, 16.12835
795.014, 16.12346
796.014, 16.11853
797.014, 16.11616