File: examples/Birch_TGA_Example/birch_tga_5_exp.csv
#FILE:                        13WaT18 5 K min N2 16.2.2007.dsu
#FORMAT:                      NETZSCH4
#IDENTITY:                    13 WaT18 5 K min N2
#DECIMAL:                     POINT
#SEPARATOR:                   SEMICOLON
#MTYPE:                       TG
#INSTRUMENT:                  NETZSCH STA 449C
#PROJECT:                     vtt
#DATE/TIME:                   16.2.2007 7:57:49
#CORR. FILE:                  correction 5K min N2 800 C.bsu
#LABORATORY:                  EO
#OPERATOR:                    TL
#REMARK:
#SAMPLE:                      13 WaT18
#SAMPLE MASS /mg:             11.322
#MATERIAL:                    Empty crucibles
#REFERENCE:                   al2o3
#REFERENCE MASS /mg:          40.312
#TYPE OF CRUCIBLE:            DSC/TG pan Al2O3
#SAMPLE CRUCIBLE MASS /mg:    0.000
#REFERENCE CRUCIBLE MASS /mg: 0.000
#PROTECTIVE GAS:              N2
#PURGE GAS 1:                 air
#FLOW RATE 1 /(ml/min):       40
#PURGE GAS 2:
#FLOW RATE 2:
#DSC RANGE /æm:               5000
#TG RANGE /æm:                5000
#CORR. CODE:                  020
#EXO:                         +1
#RANGE:                       20.0/5.00(K/min)/800.0
#SEGMENT:                     S1/2
Temp (c),Mass (%)
 23.04100,100
 24.04100, 99.89137
 25.04100, 99.87282
 26.04100, 99.85116
 27.04100, 99.82487
 28.04100, 99.80184
 29.04100, 99.77884
 30.04100, 99.74819
 31.04100, 99.72757
 32.04100, 99.70219
 33.04100, 99.67337
 34.04100, 99.64827
 35.04100, 99.62779
 36.04100, 99.59774
 37.04100, 99.56488
 38.04100, 99.54351
 39.04100, 99.51948
 40.04100, 99.48867
 41.04100, 99.45785
 42.04100, 99.42420
 43.04100, 99.37956
 44.04100, 99.34579
 45.04100, 99.30368
 46.04100, 99.26712
 47.04100, 99.22037
 48.04100, 99.17742
 49.04100, 99.13426
 50.04100, 99.08698
 51.04100, 99.03501
 52.04100, 98.98448
 53.04100, 98.93634
 54.04100, 98.88433
 55.04100, 98.82637
 56.04100, 98.77219
 57.04100, 98.71107
 58.04100, 98.65496
 59.04100, 98.59056
 60.04100, 98.52996
 61.04100, 98.46917
 62.04100, 98.40895
 63.04100, 98.34398
 64.04100, 98.28084
 65.04100, 98.22033
 66.04100, 98.14674
 67.04100, 98.08672
 68.04100, 98.02518
 69.04100, 97.96351
 70.04100, 97.89875
 71.04100, 97.83304
 72.04100, 97.76581
 73.04100, 97.69742
 74.04100, 97.64304
 75.04100, 97.58497
 76.04100, 97.53181
 77.04100, 97.47448
 78.04100, 97.41827
 79.04100, 97.36359
 80.04100, 97.31773
 81.04100, 97.27367
 82.04100, 97.22472
 83.04100, 97.18256
 84.04100, 97.13326
 85.04100, 97.09816
 86.04100, 97.06324
 87.04100, 97.02429
 88.04100, 96.98999
 89.04100, 96.95641
 90.04100, 96.92736
 91.04100, 96.89971
 92.04100, 96.87004
 93.04100, 96.84301
 94.04100, 96.82070
 95.04100, 96.79750
 96.04100, 96.78073
 97.04100, 96.76092
 98.04100, 96.73766
 99.04100, 96.71783
100.041, 96.70107
101.041, 96.68790
102.041, 96.67370
103.041, 96.65892
104.041, 96.64176
105.041, 96.63061
106.041, 96.61856
107.041, 96.61089
108.041, 96.60052
109.041, 96.58978
110.041, 96.57731
111.041, 96.56990
112.041, 96.56049
113.041, 96.55180
114.041, 96.54220
115.041, 96.53507
116.041, 96.52987
117.041, 96.52295
118.041, 96.51865
119.041, 96.51430
120.041, 96.51036
121.041, 96.50519
122.041, 96.50120
123.041, 96.49660
124.041, 96.49249
125.041, 96.48713
126.041, 96.47934
127.041, 96.47763
128.041, 96.47411
129.041, 96.46886
130.041, 96.46457
131.041, 96.46003
132.041, 96.45595
133.041, 96.44817
134.041, 96.44583
135.041, 96.43744
136.041, 96.42630
137.041, 96.42902
138.041, 96.42973
139.041, 96.42909
140.041, 96.42645
141.041, 96.42375
142.041, 96.42198
143.041, 96.42104
144.041, 96.41671
145.041, 96.41133
146.041, 96.40516
147.041, 96.40170
148.041, 96.39812
149.041, 96.39461
150.041, 96.38844
151.041, 96.38138
152.041, 96.37792
153.041, 96.37431
154.041, 96.36994
155.041, 96.36380
156.041, 96.36045
157.041, 96.35425
158.041, 96.34974
159.041, 96.34455
160.041, 96.33913
161.041, 96.33289
162.041, 96.32687
163.041, 96.32133
164.041, 96.31733
165.041, 96.30827
166.041, 96.30816
167.041, 96.30295
168.041, 96.29841
169.041, 96.29405
170.041, 96.28690
171.041, 96.27980
172.041, 96.27449
173.041, 96.26654
174.041, 96.26212
175.041, 96.25504
176.041, 96.24707
177.041, 96.23727
178.041, 96.22579
179.041, 96.21231
180.041, 96.20273
181.041, 96.19303
182.041, 96.17894
183.041, 96.16648
184.041, 96.15582
185.041, 96.14531
186.041, 96.13120
187.041, 96.11770
188.041, 96.10555
189.041, 96.08748
190.041, 96.07269
191.041, 96.05887
192.041, 96.04539
193.041, 96.02830
194.041, 96.01080
195.041, 95.99461
196.041, 95.97956
197.041, 95.96349
198.041, 95.94906
199.041, 95.92701
200.041, 95.90586
201.041, 95.88530
202.041, 95.86781
203.041, 95.84947
204.041, 95.82819
205.041, 95.81054
206.041, 95.78737
207.041, 95.76986
208.041, 95.74397
209.041, 95.72650
210.041, 95.70709
211.041, 95.68652
212.041, 95.66592
213.041, 95.63261
214.041, 95.60910
215.041, 95.58369
216.041, 95.55451
217.041, 95.53143
218.041, 95.49566
219.041, 95.46640
220.041, 95.43537
221.041, 95.40618
222.041, 95.37957
223.041, 95.33961
224.041, 95.29638
225.041, 95.25972
226.041, 95.22289
227.041, 95.18017
228.041, 95.13327
229.041, 95.08675
230.041, 95.03566
231.041, 94.99017
232.041, 94.93448
233.041, 94.87809
234.041, 94.81892
235.041, 94.75868
236.041, 94.69077
237.041, 94.63317
238.041, 94.56037
239.041, 94.49055
240.041, 94.41435
241.041, 94.33564
242.041, 94.24766
243.041, 94.16176
244.041, 94.07055
245.041, 93.97629
246.041, 93.87837
247.041, 93.77603
248.041, 93.66159
249.041, 93.54554
250.041, 93.42411
251.041, 93.29907
252.041, 93.16097
253.041, 93.02029
254.041, 92.86155
255.041, 92.69622
256.041, 92.52111
257.041, 92.33937
258.041, 92.15032
259.041, 91.94516
260.041, 91.71415
261.041, 91.48447
262.041, 91.25798
263.041, 90.99068
264.041, 90.73879
265.041, 90.45239
266.041, 90.16744
267.041, 89.85680
268.041, 89.53650
269.041, 89.21444
270.041, 88.87068
271.041, 88.51484
272.041, 88.14722
273.041, 87.76879
274.041, 87.37954
275.041, 86.98597
276.041, 86.57551
277.041, 86.15063
278.041, 85.72534
279.041, 85.30197
280.041, 84.85588
281.041, 84.40413
282.041, 83.95503
283.041, 83.50064
284.041, 83.04033
285.041, 82.57569
286.041, 82.11398
287.041, 81.64535
288.041, 81.17415
289.041, 80.70280
290.041, 80.23643
291.041, 79.76252
292.041, 79.28529
293.041, 78.81420
294.041, 78.34219
295.041, 77.86264
296.041, 77.39496
297.041, 76.93095
298.041, 76.45422
299.041, 75.97404
300.041, 75.50585
301.041, 75.03894
302.041, 74.56838
303.041, 74.08176
304.041, 73.61579
305.041, 73.14166
306.041, 72.65627
307.041, 72.17508
308.041, 71.70741
309.041, 71.22428
310.041, 70.73458
311.041, 70.25332
312.041, 69.77652
313.041, 69.28618
314.041, 68.80248
315.041, 68.31647
316.041, 67.83448
317.041, 67.33258
318.041, 66.84568
319.041, 66.34745
320.041, 65.85203
321.041, 65.35918
322.041, 64.86378
323.041, 64.36852
324.041, 63.87069
325.041, 63.37603
326.041, 62.87302
327.041, 62.37209
328.041, 61.86355
329.041, 61.34984
330.041, 60.83467
331.041, 60.32225
332.041, 59.79148
333.041, 59.25991
334.041, 58.72414
335.041, 58.16657
336.041, 57.60448
337.041, 57.03369
338.041, 56.43452
339.041, 55.82081
340.041, 55.18949
341.041, 54.52993
342.041, 53.83002
343.041, 52.99964
344.041, 52.20205
345.041, 51.40806
346.041, 50.56964
347.041, 49.62573
348.041, 48.92951
349.041, 47.88593
350.041, 46.86342
351.041, 45.72722
352.041, 44.51621
353.041, 43.34373
354.041, 42.17188
355.041, 40.97288
356.041, 39.81281
357.041, 38.47293
358.041, 37.04364
359.041, 35.76433
360.041, 34.56555
361.041, 33.23311
362.041, 32.20057
363.041, 31.15660
364.041, 29.97286
365.041, 29.00369
366.041, 28.28527
367.041, 27.60185
368.041, 26.88622
369.041, 26.37044
370.041, 25.88584
371.041, 25.47754
372.041, 25.14879
373.041, 24.87890
374.041, 24.67237
375.041, 24.48266
376.041, 24.33192
377.041, 24.21157
378.041, 24.10158
379.041, 23.99840
380.041, 23.91479
381.041, 23.82462
382.041, 23.73813
383.041, 23.66286
384.041, 23.58458
385.041, 23.50683
386.041, 23.43098
387.041, 23.36066
388.041, 23.28357
389.041, 23.21642
390.041, 23.14108
391.041, 23.06935
392.041, 23.00084
393.041, 22.92961
394.041, 22.85663
395.041, 22.79071
396.041, 22.72572
397.041, 22.65348
398.041, 22.58187
399.041, 22.51343
400.041, 22.44710
401.041, 22.37981
402.041, 22.30534
403.041, 22.23744
404.041, 22.16513
405.041, 22.10296
406.041, 22.03203
407.041, 21.96449
408.041, 21.89214
409.041, 21.82755
410.041, 21.75411
411.041, 21.68575
412.041, 21.61699
413.041, 21.55439
414.041, 21.49029
415.041, 21.42186
416.041, 21.35638
417.041, 21.29025
418.041, 21.22752
419.041, 21.16135
420.041, 21.10231
421.041, 21.04111
422.041, 20.98073
423.041, 20.91390
424.041, 20.85730
425.041, 20.79828
426.041, 20.74243
427.041, 20.68889
428.041, 20.62870
429.041, 20.57121
430.041, 20.51801
431.041, 20.46723
432.041, 20.41396
433.041, 20.35936
434.041, 20.30642
435.041, 20.25528
436.041, 20.19977
437.041, 20.14849
438.041, 20.09752
439.041, 20.05527
440.041, 20.00372
441.041, 19.96305
442.041, 19.91520
443.041, 19.86711
444.041, 19.82197
445.041, 19.77457
446.041, 19.73488
447.041, 19.69481
448.041, 19.65189
449.041, 19.60930
450.041, 19.56438
451.041, 19.52268
452.041, 19.48392
453.041, 19.44867
454.041, 19.40640
455.041, 19.36424
456.041, 19.33068
457.041, 19.29518
458.041, 19.25491
459.041, 19.22231
460.041, 19.18750
461.041, 19.14764
462.041, 19.11367
463.041, 19.07763
464.041, 19.04357
465.041, 19.01437
466.041, 18.97710
467.041, 18.94618
468.041, 18.90837
469.041, 18.87534
470.041, 18.84230
471.041, 18.81680
472.041, 18.78795
473.041, 18.75368
474.041, 18.72539
475.041, 18.69304
476.041, 18.66371
477.041, 18.62392
478.041, 18.60015
479.041, 18.57022
480.041, 18.53944
481.041, 18.51236
482.041, 18.47792
483.041, 18.45495
484.041, 18.42556
485.041, 18.40244
486.041, 18.37476
487.041, 18.34010
488.041, 18.31829
489.041, 18.29414
490.041, 18.26672
491.041, 18.23785
492.041, 18.21229
493.041, 18.17530
494.041, 18.14768
495.041, 18.12272
496.041, 18.10482
497.041, 18.07043
498.041, 18.04657
499.041, 18.02015
500.041, 18.00060
501.041, 17.96654
502.041, 17.94930
503.041, 17.92006
504.041, 17.89749
505.041, 17.86832
506.041, 17.84868
507.041, 17.82420
508.041, 17.80096
509.041, 17.77353
510.041, 17.74705
511.041, 17.72827
512.041, 17.70747
513.041, 17.68153
514.041, 17.65501
515.041, 17.63256
516.041, 17.60498
517.041, 17.58152
518.041, 17.56230
519.041, 17.54000
520.041, 17.51355
521.041, 17.49718
522.041, 17.47659
523.041, 17.45148
524.041, 17.42857
525.041, 17.40705
526.041, 17.38072
527.041, 17.35975
528.041, 17.34864
529.041, 17.32842
530.041, 17.30433
531.041, 17.27808
532.041, 17.25317
533.041, 17.22974
534.041, 17.20844
535.041, 17.19048
536.041, 17.17712
537.041, 17.14639
538.041, 17.12372
539.041, 17.10621
540.041, 17.08616
541.041, 17.06673
542.041, 17.04455
543.041, 17.02890
544.041, 17.01048
545.041, 16.99002
546.041, 16.97675
547.041, 16.95121
548.041, 16.93685
549.041, 16.91621
550.041, 16.89364
551.041, 16.87567
552.041, 16.85875
553.041, 16.83681
554.041, 16.81454
555.041, 16.80009
556.041, 16.78434
557.041, 16.76178
558.041, 16.74359
559.041, 16.71859
560.041, 16.70436
561.041, 16.68359
562.041, 16.66984
563.041, 16.64927
564.041, 16.63102
565.041, 16.61961
566.041, 16.60225
567.041, 16.59120
568.041, 16.57080
569.041, 16.55609
570.041, 16.53301
571.041, 16.51873
572.041, 16.50086
573.041, 16.48306
574.041, 16.46868
575.041, 16.44548
576.041, 16.43227
577.041, 16.41565
578.041, 16.40337
579.041, 16.39000
580.041, 16.36970
581.041, 16.35745
582.041, 16.33887
583.041, 16.31154
584.041, 16.31072
585.041, 16.29652
586.041, 16.27802
587.041, 16.26920
588.041, 16.24889
589.041, 16.23652
590.041, 16.21271
591.041, 16.19510
592.041, 16.18097
593.041, 16.16780
594.041, 16.15885
595.041, 16.14480
596.041, 16.13074
597.041, 16.11497
598.041, 16.10098
599.041, 16.08759
600.041, 16.06901
601.041, 16.05693
602.041, 16.04170
603.041, 16.02862
604.041, 16.02119
605.041, 16.00193
606.041, 15.99639
607.041, 15.98356
608.041, 15.96862
609.041, 15.95931
610.041, 15.93885
611.041, 15.93154
612.041, 15.91915
613.041, 15.90653
614.041, 15.89653
615.041, 15.88264
616.041, 15.87217
617.041, 15.85831
618.041, 15.85153
619.041, 15.83728
620.041, 15.82820
621.041, 15.81726
622.041, 15.80703
623.041, 15.80163
624.041, 15.78577
625.041, 15.77274
626.041, 15.76112
627.041, 15.75685
628.041, 15.74773
629.041, 15.73935
630.041, 15.72557
631.041, 15.71845
632.041, 15.69529
633.041, 15.68913
634.041, 15.67736
635.041, 15.66731
636.041, 15.65532
637.041, 15.64409
638.041, 15.63311
639.041, 15.62570
640.041, 15.61495
641.041, 15.60609
642.041, 15.60182
643.041, 15.58976
644.041, 15.58211
645.041, 15.57620
646.041, 15.56498
647.041, 15.55020
648.041, 15.54423
649.041, 15.53831
650.041, 15.53057
651.041, 15.52077
652.041, 15.50799
653.041, 15.50091
654.041, 15.49309
655.041, 15.48679
656.041, 15.47625
657.041, 15.47452
658.041, 15.46395
659.041, 15.45576
660.041, 15.44794
661.041, 15.44435
662.041, 15.43023
663.041, 15.42832
664.041, 15.42128
665.041, 15.41332
666.041, 15.40367
667.041, 15.39480
668.041, 15.38850
669.041, 15.37882
670.041, 15.37257
671.041, 15.36286
672.041, 15.35146
673.041, 15.34246
674.041, 15.34107
675.041, 15.33262
676.041, 15.32401
677.041, 15.31905
678.041, 15.31396
679.041, 15.30798
680.041, 15.29634
681.041, 15.29124
682.041, 15.28312
683.041, 15.27265
684.041, 15.26678
685.041, 15.26023
686.041, 15.25343
687.041, 15.24553
688.041, 15.23715
689.041, 15.23070
690.041, 15.22657
691.041, 15.22056
692.041, 15.21487
693.041, 15.20622
694.041, 15.19685
695.041, 15.18984
696.041, 15.18081
697.041, 15.17836
698.041, 15.16904
699.041, 15.16204
700.041, 15.15638
701.041, 15.14812
702.041, 15.14022
703.041, 15.12946
704.041, 15.12308
705.041, 15.11793
706.041, 15.10866
707.041, 15.10344
708.041, 15.09653
709.041, 15.09279
710.041, 15.08657
711.041, 15.08127
712.041, 15.07240
713.041, 15.06356
714.041, 15.05830
715.041, 15.05743
716.041, 15.04850
717.041, 15.04236
718.041, 15.03873
719.041, 15.02890
720.041, 15.02199
721.041, 15.01570
722.041, 15.01225
723.041, 15.00641
724.041, 14.99914
725.041, 14.99365
726.041, 14.98852
727.041, 14.98287
728.041, 14.97445
729.041, 14.96978
730.041, 14.96703
731.041, 14.95877
732.041, 14.94985
733.041, 14.94045
734.041, 14.93513
735.041, 14.92584
736.041, 14.91920
737.041, 14.91831
738.041, 14.91525
739.041, 14.90622
740.041, 14.89902
741.041, 14.89531
742.041, 14.88632
743.041, 14.88455
744.041, 14.87929
745.041, 14.87239
746.041, 14.86089
747.041, 14.85707
748.041, 14.84646
749.041, 14.84284
750.041, 14.83939
751.041, 14.82778
752.041, 14.82600
753.041, 14.81980
754.041, 14.81708
755.041, 14.81090
756.041, 14.80381
757.041, 14.79942
758.041, 14.79416
759.041, 14.78959
760.041, 14.78174
761.041, 14.77574
762.041, 14.76999
763.041, 14.76598
764.041, 14.76235
765.041, 14.75765
766.041, 14.75051
767.041, 14.74361
768.041, 14.73661
769.041, 14.73365
770.041, 14.72353
771.041, 14.71763
772.041, 14.70706
773.041, 14.70078
774.041, 14.69840
775.041, 14.69452
776.041, 14.68953
777.041, 14.68389
778.041, 14.67664
779.041, 14.67236
780.041, 14.66603
781.041, 14.66212
782.041, 14.65419
783.041, 14.64613
784.041, 14.64542
785.041, 14.64176
786.041, 14.63554
787.041, 14.62591
788.041, 14.62233
789.041, 14.62023
790.041, 14.61488
791.041, 14.60898
792.041, 14.60441
793.041, 14.59836
794.041, 14.59382
795.041, 14.58860
796.041, 14.58059
797.041, 14.57870